File: xps/data/pet/ubersichtspektrern.txt
?
Axis	Energy	Elements=	1361

C:\Users\AG Wittstock\Documents\Iza\06_27.01.2017\PET_03\Polyanalyse.DATA\Survey_3.VGD

Binding Energy (E)
eV		Counts / s
1350.00		46516.3
1349.00		46029.9
1348.00		45559.4
1347.00		46689.6
1346.00		45054.0
1345.00		47101.6
1344.00		46443.8
1343.00		46570.1
1342.00		46406.4
1341.00		46082.1
1340.00		46952.2
1339.00		46624.3
1338.00		46180.5
1337.00		46504.8
1336.00		45373.5
1335.00		45688.0
1334.00		45274.5
1333.00		46774.5
1332.00		47206.6
1331.00		46290.2
1330.00		46828.3
1329.00		47172.1
1328.00		45866.3
1327.00		47548.6
1326.00		46909.0
1325.00		48612.9
1324.00		47433.7
1323.00		46881.3
1322.00		48073.1
1321.00		47891.8
1320.00		47781.1
1319.00		46980.9
1318.00		48345.4
1317.00		49038.2
1316.00		49452.2
1315.00		48715.5
1314.00		46687.8
1313.00		47684.9
1312.00		48264.1
1311.00		48236.9
1310.00		48895.2
1309.00		48619.3
1308.00		49409.0
1307.00		50027.3
1306.00		49818.3
1305.00		49342.8
1304.00		48669.7
1303.00		49028.1
1302.00		48852.4
1301.00		48515.9
1300.00		49839.6
1299.00		49892.0
1298.00		49779.5
1297.00		49936.7
1296.00		49746.6
1295.00		50215.1
1294.00		50968.9
1293.00		49802.4
1292.00		50262.2
1291.00		49439.4
1290.00		50664.1
1289.00		52799.4
1288.00		53050.0
1287.00		50857.0
1286.00		51069.7
1285.00		51539.6
1284.00		52153.0
1283.00		52995.4
1282.00		51713.1
1281.00		52514.1
1280.00		53242.8
1279.00		50458.2
1278.00		53084.7
1277.00		53076.9
1276.00		54506.6
1275.00		52445.8
1274.00		52030.9
1273.00		53801.0
1272.00		53540.2
1271.00		51934.1
1270.00		53712.2
1269.00		52166.3
1268.00		53492.0
1267.00		53242.6
1266.00		52981.9
1265.00		54088.0
1264.00		53505.8
1263.00		55809.8
1262.00		55973.3
1261.00		55986.3
1260.00		55437.6
1259.00		56152.4
1258.00		57170.3
1257.00		55831.7
1256.00		55612.9
1255.00		54943.8
1254.00		56312.9
1253.00		57395.4
1252.00		57182.5
1251.00		57019.9
1250.00		57845.8
1249.00		57200.4
1248.00		58250.4
1247.00		57732.3
1246.00		57941.2
1245.00		58148.4
1244.00		58962.4
1243.00		59398.0
1242.00		59226.3
1241.00		60054.0
1240.00		61812.2
1239.00		60108.8
1238.00		61597.8
1237.00		61977.9
1236.00		60735.1
1235.00		62506.4
1234.00		63098.2
1233.00		61926.9
1232.00		62148.6
1231.00		63861.4
1230.00		62546.0
1229.00		63209.0
1228.00		60585.7
1227.00		58272.5
1226.00		57207.8
1225.00		54820.3
1224.00		53386.1
1223.00		51898.2
1222.00		51073.1
1221.00		49480.1
1220.00		48406.4
1219.00		47044.4
1218.00		45331.5
1217.00		46027.5
1216.00		44947.4
1215.00		43968.9
1214.00		42413.7
1213.00		42668.3
1212.00		41574.9
1211.00		41931.7
1210.00		39736.9
1209.00		39926.9
1208.00		40822.1
1207.00		40557.8
1206.00		40528.9
1205.00		40136.3
1204.00		39589.0
1203.00		41269.7
1202.00		40529.9
1201.00		40410.2
1200.00		41340.0
1199.00		42693.6
1198.00		40878.7
1197.00		40471.7
1196.00		42049.8
1195.00		42424.3
1194.00		41776.5
1193.00		40886.3
1192.00		41149.4
1191.00		42810.2
1190.00		41114.7
1189.00		40846.4
1188.00		40810.2
1187.00		41988.0
1186.00		42063.1
1185.00		43588.0
1184.00		42928.7
1183.00		41860.0
1182.00		41703.6
1181.00		41937.6
1180.00		42606.0
1179.00		42941.8
1178.00		42323.5
1177.00		41986.3
1176.00		42889.4
1175.00		42262.9
1174.00		42982.7
1173.00		41650.8
1172.00		42820.9
1171.00		43841.6
1170.00		44642.8
1169.00		42537.8
1168.00		43659.0
1167.00		43819.5
1166.00		42346.2
1165.00		43821.1
1164.00		43360.0
1163.00		44467.9
1162.00		43084.3
1161.00		43637.6
1160.00		43191.4
1159.00		43412.4
1158.00		44072.7
1157.00		46035.9
1156.00		44060.0
1155.00		43428.7
1154.00		43434.3
1153.00		44475.1
1152.00		45197.4
1151.00		46813.7
1150.00		45345.0
1149.00		45252.8
1148.00		46806.4
1147.00		45387.1
1146.00		44984.9
1145.00		44415.3
1144.00		43647.0
1143.00		44158.0
1142.00		44424.7
1141.00		45688.2
1140.00		45748.0
1139.00		45648.0
1138.00		43885.7
1137.00		46018.5
1136.00		45479.9
1135.00		45911.0
1134.00		47732.1
1133.00		47475.3
1132.00		47545.0
1131.00		46085.3
1130.00		45456.2
1129.00		46803.2
1128.00		46405.2
1127.00		46818.9
1126.00		46882.7
1125.00		47019.1
1124.00		47582.5
1123.00		47230.1
1122.00		48186.1
1121.00		48283.7
1120.00		46447.4
1119.00		46838.8
1118.00		46737.6
1117.00		46741.8
1116.00		48502.4
1115.00		48115.1
1114.00		46973.5
1113.00		47938.4
1112.00		47692.8
1111.00		48384.9
1110.00		47948.6
1109.00		48999.8
1108.00		49405.0
1107.00		47495.8
1106.00		47741.4
1105.00		49030.1
1104.00		48873.1
1103.00		48571.5
1102.00		50558.8
1101.00		50351.4
1100.00		50053.4
1099.00		49235.3
1098.00		49424.5
1097.00		49858.0
1096.00		50124.1
1095.00		49332.3
1094.00		50779.3
1093.00		48283.9
1092.00		50282.5
1091.00		50629.9
1090.00		49255.8
1089.00		49785.7
1088.00		50066.5
1087.00		51134.7
1086.00		51635.9
1085.00		50978.9
1084.00		50695.8
1083.00		50643.8
1082.00		50514.1
1081.00		52141.8
1080.00		50344.0
1079.00		50321.1
1078.00		51614.5
1077.00		51964.7
1076.00		52286.5
1075.00		50761.2
1074.00		52554.6
1073.00		51758.2
1072.00		52189.2
1071.00		51918.7
1070.00		51977.9
1069.00		53225.1
1068.00		53936.7
1067.00		53044.2
1066.00		52730.3
1065.00		52955.8
1064.00		53005.6
1063.00		52027.5
1062.00		52163.3
1061.00		52648.0
1060.00		54705.6
1059.00		53418.3
1058.00		53040.4
1057.00		54671.7
1056.00		54428.1
1055.00		53267.7
1054.00		54293.4
1053.00		52508.0
1052.00		52508.6
1051.00		53377.9
1050.00		52811.6
1049.00		53640.0
1048.00		54888.2
1047.00		54284.5
1046.00		53140.0
1045.00		54282.3
1044.00		54182.9
1043.00		54023.3
1042.00		54454.8
1041.00		54606.8
1040.00		56778.9
1039.00		55043.2
1038.00		55348.8
1037.00		54398.6
1036.00		57602.0
1035.00		56306.6
1034.00		55116.1
1033.00		54281.3
1032.00		55004.0
1031.00		54667.9
1030.00		56269.3
1029.00		55262.0
1028.00		55630.3
1027.00		56493.0
1026.00		57011.8
1025.00		56599.8
1024.00		56543.4
1023.00		54484.5
1022.00		56094.4
1021.00		58004.2
1020.00		56589.8
1019.00		57082.7
1018.00		56262.7
1017.00		55139.6
1016.00		55247.8
1015.00		57358.0
1014.00		55997.0
1013.00		57178.3
1012.00		56798.2
1011.00		55616.7
1010.00		57293.4
1009.00		58652.8
1008.00		59280.9
1007.00		59824.3
1006.00		59622.1
1005.00		61826.1
1004.00		60188.8
1003.00		59557.4
1002.00		61031.9
1001.00		60207.2
1000.00		61573.1
999.000		60598.6
998.000		57612.2
997.000		57589.4
996.000		56990.2
995.000		56244.2
994.000		55299.4
993.000		55490.4
992.000		56249.6
991.000		55894.8
990.000		54606.2
989.000		53035.9
988.000		54944.4
987.000		55061.4
986.000		55071.3
985.000		54904.0
984.000		56442.6
983.000		58255.0
982.000		60188.8
981.000		61971.3
980.000		61190.0
979.000		61708.4
978.000		63383.3
977.000		61902.2
976.000		59574.1
975.000		59151.4
974.000		56636.7
973.000		54828.5
972.000		51867.1
971.000		49716.1
970.000		47907.6
969.000		44640.6
968.000		43401.4
967.000		39962.7
966.000		39979.5
965.000		39609.8
964.000		38068.5
963.000		37189.2
962.000		37912.4
961.000		37959.4
960.000		37966.7
959.000		37295.0
958.000		36299.6
957.000		36707.4
956.000		37541.2
955.000		38595.0
954.000		37645.4
953.000		38491.8
952.000		37984.9
951.000		37523.3
950.000		38551.4
949.000		37083.7
948.000		38245.2
947.000		38180.5
946.000		38236.9
945.000		36288.0
944.000		37357.4
943.000		38531.7
942.000		36882.5
941.000		37846.6
940.000		37216.9
939.000		39581.1
938.000		38240.4
937.000		37976.1
936.000		37959.6
935.000		37486.9
934.000		38962.7
933.000		39315.9
932.000		38834.5
931.000		37766.3
930.000		38072.3
929.000		37809.4
928.000		38444.8
927.000		39108.8
926.000		39353.8
925.000		38815.1
924.000		36782.7
923.000		37277.3
922.000		38467.3
921.000		40353.6
920.000		37038.6
919.000		39384.7
918.000		39271.9
917.000		38620.7
916.000		38432.1
915.000		39260.4
914.000		37964.3
913.000		39376.7
912.000		38841.2
911.000		39137.8
910.000		38750.4
909.000		39759.2
908.000		39108.0
907.000		40334.1
906.000		39925.5
905.000		39672.1
904.000		40994.2
903.000		39725.9
902.000		41342.0
901.000		40914.5
900.000		39456.0
899.000		39690.8
898.000		39504.0
897.000		40461.6
896.000		40859.0
895.000		39829.3
894.000		40565.5
893.000		40560.6
892.000		41919.3
891.000		40039.2
890.000		39254.0
889.000		41883.5
888.000		42572.3
887.000		42752.8
886.000		42000.4
885.000		42177.5
884.000		41177.3
883.000		40074.1
882.000		41694.8
881.000		40689.8
880.000		42003.6
879.000		40666.5
878.000		40565.7
877.000		40647.2
876.000		40154.4
875.000		41675.9
874.000		41616.7
873.000		40988.8
872.000		40729.9
871.000		43114.5
870.000		40699.8
869.000		41591.6
868.000		40954.4
867.000		42323.7
866.000		41253.2
865.000		42325.1
864.000		43633.9
863.000		42392.2
862.000		42591.8
861.000		43012.2
860.000		43089.8
859.000		42361.0
858.000		44006.8
857.000		43358.4
856.000		42001.8
855.000		42517.9
854.000		43836.9
853.000		43623.5
852.000		42659.0
851.000		42327.3
850.000		42345.0
849.000		41020.3
848.000		42170.3
847.000		43241.4
846.000		42873.3
845.000		44059.8
844.000		44191.2
843.000		44162.0
842.000		42479.5
841.000		43183.1
840.000		44045.8
839.000		44373.1
838.000		43268.1
837.000		42223.5
836.000		42800.4
835.000		43117.5
834.000		43959.0
833.000		43945.2
832.000		44559.8
831.000		43433.9
830.000		43578.3
829.000		42630.9
828.000		44021.1
827.000		44910.4
826.000		44488.6
825.000		42331.9
824.000		43864.9
823.000		45695.4
822.000		44561.0
821.000		44931.3
820.000		44674.7
819.000		43615.5
818.000		44182.7
817.000		45072.1
816.000		42640.4
815.000		44625.3
814.000		45090.6
813.000		45363.7
812.000		44819.7
811.000		45128.7
810.000		44308.0
809.000		43475.3
808.000		44074.3
807.000		45786.7
806.000		45210.8
805.000		44681.7
804.000		44543.2
803.000		45435.1
802.000		45878.1
801.000		45886.5
800.000		46989.2
799.000		46909.0
798.000		45669.9
797.000		45739.6
796.000		46577.1
795.000		46412.9
794.000		45072.7
793.000		44694.0
792.000		45682.5
791.000		45445.6
790.000		47713.3
789.000		46025.5
788.000		46703.8
787.000		45656.8
786.000		44095.8
785.000		46333.9
784.000		47151.6
783.000		47145.4
782.000		46679.7
781.000		47655.6
780.000		45830.3
779.000		46570.5
778.000		47096.8
777.000		46628.7
776.000		47139.6
775.000		46495.8
774.000		47466.5
773.000		45946.4
772.000		47360.4
771.000		45983.1
770.000		48106.0
769.000		48504.2
768.000		47176.7
767.000		45901.6
766.000		47462.2
765.000		47878.5
764.000		48304.0
763.000		47809.4
762.000		47247.0
761.000		47695.6
760.000		48325.1
759.000		47016.3
758.000		48668.9
757.000		48312.2
756.000		48260.6
755.000		48140.0
754.000		47488.0
753.000		47589.8
752.000		45388.0
751.000		48349.0
750.000		48632.7
749.000		49690.4
748.000		48275.5
747.000		50065.9
746.000		50032.1
745.000		49767.7
744.000		48483.9
743.000		48825.5
742.000		49390.0
741.000		49685.1
740.000		49659.8
739.000		49232.5
738.000		48971.1
737.000		49084.3
736.000		49423.1
735.000		49320.3
734.000		50375.5
733.000		49583.5
732.000		50942.0
731.000		50530.5
730.000		50487.6
729.000		49281.1
728.000		50788.0
727.000		50150.8
726.000		49381.7
725.000		50046.2
724.000		51013.1
723.000		50852.8
722.000		50208.2
721.000		50005.2
720.000		50248.2
719.000		49924.9
718.000		51522.5
717.000		49190.2
716.000		50822.5
715.000		51151.0
714.000		50151.4
713.000		50911.6
712.000		50033.7
711.000		50862.7
710.000		50692.8
709.000		50927.7
708.000		52514.7
707.000		51339.4
706.000		50783.5
705.000		50591.2
704.000		51337.1
703.000		52168.1
702.000		52809.6
701.000		50616.9
700.000		50320.9
699.000		50370.5
698.000		50536.9
697.000		52373.7
696.000		52102.2
695.000		51799.2
694.000		51755.8
693.000		52463.3
692.000		53649.2
691.000		51684.1
690.000		52786.9
689.000		54228.9
688.000		51461.2
687.000		51953.6
686.000		53955.8
685.000		54266.9
684.000		53715.1
683.000		52111.8
682.000		52068.5
681.000		50829.3
680.000		52258.2
679.000		51849.6
678.000		52004.2
677.000		52540.2
676.000		51769.3
675.000		51952.2
674.000		51452.2
673.000		54180.3
672.000		51677.5
671.000		52495.4
670.000		51950.2
669.000		52880.7
668.000		52032.3
667.000		53383.5
666.000		53195.0
665.000		52773.3
664.000		52012.4
663.000		53785.5
662.000		52927.5
661.000		54550.6
660.000		52641.2
659.000		52956.6
658.000		53713.5
657.000		52019.7
656.000		53007.2
655.000		53216.5
654.000		53898.4
653.000		54393.0
652.000		53906.4
651.000		53752.2
650.000		54580.9
649.000		53826.5
648.000		53600.2
647.000		53356.2
646.000		53238.8
645.000		54790.0
644.000		56017.3
643.000		55177.7
642.000		55076.5
641.000		55018.7
640.000		53944.8
639.000		53939.2
638.000		55216.7
637.000		55966.5
636.000		53352.0
635.000		55663.9
634.000		55966.1
633.000		54938.0
632.000		55641.2
631.000		55371.9
630.000		55165.1
629.000		54088.4
628.000		54581.5
627.000		54680.3
626.000		56557.6
625.000		55167.1
624.000		55677.1
623.000		55029.9
622.000		54978.9
621.000		54413.5
620.000		53226.1
619.000		54452.2
618.000		54039.4
617.000		56035.7
616.000		56867.7
615.000		54899.2
614.000		54562.7
613.000		55569.5
612.000		57380.9
611.000		56488.8
610.000		56882.9
609.000		55472.5
608.000		55382.9
607.000		56666.7
606.000		56231.5
605.000		57979.1
604.000		54977.5
603.000		55387.8
602.000		55832.3
601.000		55527.3
600.000		56420.9
599.000		55971.1
598.000		55866.7
597.000		55151.8
596.000		55208.2
595.000		55829.5
594.000		56771.3
593.000		56182.1
592.000		57532.9
591.000		56435.9
590.000		56629.5
589.000		55316.5
588.000		55355.4
587.000		56556.0
586.000		56855.6
585.000		56644.6
584.000		55055.2
583.000		57157.2
582.000		56992.4
581.000		56480.3
580.000		56954.2
579.000		58960.0
578.000		57118.1
577.000		55825.1
576.000		55615.5
575.000		57200.2
574.000		55521.9
573.000		54827.3
572.000		55951.0
571.000		57503.2
570.000		57468.3
569.000		55244.4
568.000		55186.3
567.000		53933.3
566.000		55361.4
565.000		55240.0
564.000		56673.3
563.000		57538.0
562.000		59070.3
561.000		58602.4
560.000		59163.5
559.000		60463.7
558.000		60556.8
557.000		59501.8
556.000		57756.2
555.000		57401.6
554.000		57669.9
553.000		57365.7
552.000		56526.5
551.000		54939.6
550.000		53431.9
549.000		50715.5
548.000		50363.1
547.000		48544.2
546.000		47372.1
545.000		45529.5
544.000		43247.4
543.000		40814.9
542.000		40292.6
541.000		40781.1
540.000		41500.0
539.000		41886.3
538.000		44324.3
537.000		48807.6
536.000		55851.8
535.000		77080.3
534.000		121928.
533.000		160394.
532.000		149823.
531.000		101046.
530.000		51629.1
529.000		33468.7
528.000		29539.4
527.000		29847.6
526.000		28422.1
525.000		27272.1
524.000		27834.9
523.000		27073.5
522.000		26704.4
521.000		27114.3
520.000		27547.2
519.000		28531.3
518.000		27252.0
517.000		28101.0
516.000		27339.2
515.000		27610.0
514.000		27523.1
513.000		27399.8
512.000		28846.8
511.000		29016.5
510.000		28136.3
509.000		27628.5
508.000		27958.6
507.000		29001.0
506.000		28969.3
505.000		28595.6
504.000		28314.5
503.000		28480.3
502.000		27984.9
501.000		28227.9
500.000		28335.3
499.000		27743.6
498.000		28802.0
497.000		29230.3
496.000		29554.8
495.000		28562.9
494.000		28908.4
493.000		28478.9
492.000		27660.6
491.000		27669.7
490.000		28894.8
489.000		29533.9
488.000		30327.7
487.000		29862.2
486.000		29566.7
485.000		28121.7
484.000		28090.2
483.000		27692.2
482.000		29135.5
481.000		29693.8
480.000		29230.7
479.000		28383.7
478.000		28270.7
477.000		29826.7
476.000		29571.1
475.000		29619.7
474.000		28993.2
473.000		28522.3
472.000		28475.7
471.000		28632.3
470.000		28555.4
469.000		29865.3
468.000		29422.5
467.000		29642.0
466.000		29963.7
465.000		29655.8
464.000		28778.3
463.000		29319.7
462.000		29437.3
461.000		28743.2
460.000		29789.6
459.000		30306.0
458.000		29531.1
457.000		29562.2
456.000		29434.3
455.000		30160.0
454.000		29092.6
453.000		30662.4
452.000		30574.1
451.000		29047.2
450.000		29223.1
449.000		30999.2
448.000		30508.4
447.000		28905.6
446.000		30032.7
445.000		30374.9
444.000		30270.5
443.000		29805.4
442.000		29191.2
441.000		29813.1
440.000		30672.7
439.000		31743.4
438.000		31494.6
437.000		30279.5
436.000		30070.7
435.000		30628.5
434.000		30341.0
433.000		31714.1
432.000		31563.1
431.000		30880.7
430.000		31325.9
429.000		30669.3
428.000		31127.5
427.000		30542.2
426.000		31315.9
425.000		30973.7
424.000		31012.2
423.000		29235.9
422.000		29491.4
421.000		31096.0
420.000		31527.7
419.000		30850.8
418.000		31067.3
417.000		31435.5
416.000		30347.8
415.000		31094.4
414.000		32324.5
413.000		31516.5
412.000		32223.1
411.000		31155.0
410.000		30895.8
409.000		31238.6
408.000		31325.3
407.000		31608.4
406.000		32141.4
405.000		32306.2
404.000		32379.5
403.000		31522.9
402.000		33429.3
401.000		32624.5
400.000		32779.9
399.000		33480.5
398.000		32856.4
397.000		32234.3
396.000		31983.3
395.000		32789.4
394.000		32569.3
393.000		32562.9
392.000		33194.2
391.000		32327.5
390.000		31775.7
389.000		33090.2
388.000		33502.2
387.000		33593.8
386.000		33692.4
385.000		31773.7
384.000		33118.7
383.000		33442.4
382.000		33498.4
381.000		33136.1
380.000		33390.4
379.000		32233.1
378.000		33884.1
377.000		32542.0
376.000		32732.7
375.000		33735.1
374.000		34380.1
373.000		33944.0
372.000		34154.4
371.000		34082.5
370.000		34419.1
369.000		32812.7
368.000		33180.5
367.000		33718.7
366.000		35140.0
365.000		34915.1
364.000		34047.6
363.000		33522.9
362.000		33279.1
361.000		34320.9
360.000		33784.3
359.000		34448.0
358.000		35466.3
357.000		34584.9
356.000		33094.2
355.000		34621.7
354.000		35912.0
353.000		35656.8
352.000		35037.8
351.000		35301.6
350.000		35306.2
349.000		34907.8
348.000		36288.0
347.000		36461.0
346.000		36109.6
345.000		35142.0
344.000		36139.2
343.000		36224.3
342.000		36118.5
341.000		36592.4
340.000		36193.4
339.000		37275.3
338.000		37219.1
337.000		36475.1
336.000		36263.5
335.000		36781.7
334.000		36127.7
333.000		36215.3
332.000		35945.2
331.000		35753.4
330.000		37637.8
329.000		37351.4
328.000		36371.9
327.000		37281.5
326.000		36081.3
325.000		36497.8
324.000		37425.7
323.000		37519.5
322.000		37296.4
321.000		38081.1
320.000		37596.4
319.000		35758.2
318.000		38983.7
317.000		38609.8
316.000		38027.9
315.000		39541.2
314.000		40077.1
313.000		39989.0
312.000		39918.5
311.000		39662.0
310.000		39751.2
309.000		36562.7
308.000		37052.0
307.000		37978.5
306.000		37232.9
305.000		35003.4
304.000		33501.4
303.000		31708.8
302.000		30219.9
301.000		28434.9
300.000		27209.2
299.000		25367.7
298.000		22910.8
297.000		22323.1
296.000		21996.6
295.000		23449.0
294.000		23526.9
293.000		25341.0
292.000		28921.3
291.000		33604.4
290.000		44976.5
289.000		58513.9
288.000		64163.3
287.000		75918.9
286.000		114311.
285.000		163938.
284.000		132796.
283.000		47763.1
282.000		12329.3
281.000		5433.33
280.000		3789.56
279.000		3369.88
278.000		3062.85
277.000		3530.52
276.000		3046.99
275.000		2632.33
274.000		2828.92
273.000		3024.70
272.000		3101.61
271.000		2931.73
270.000		3258.03
269.000		2822.69
268.000		2800.80
267.000		2567.67
266.000		2861.85
265.000		3161.85
264.000		2882.93
263.000		2604.42
262.000		2575.10
261.000		2512.85
260.000		2289.56
259.000		2614.26
258.000		2781.93
257.000		2571.08
256.000		2562.65
255.000		2500.40
254.000		2635.54
253.000		2654.22
252.000		2707.83
251.000		2721.89
250.000		3078.11
249.000		2895.78
248.000		2738.15
247.000		2622.89
246.000		2445.38
245.000		2513.65
244.000		2818.27
243.000		2489.16
242.000		2591.57
241.000		2546.39
240.000		2622.09
239.000		2946.59
238.000		3189.56
237.000		3029.72
236.000		2570.08
235.000		2735.74
234.000		2917.27
233.000		2867.27
232.000		3069.28
231.000		2907.63
230.000		2851.41
229.000		3117.67
228.000		2868.47
227.000		2808.03
226.000		2912.85
225.000		2728.92
224.000		2853.21
223.000		2857.23
222.000		2272.49
221.000		2957.63
220.000		2809.24
219.000		2651.00
218.000		2554.82
217.000		2799.20
216.000		2669.08
215.000		3139.16
214.000		2787.75
213.000		3063.45
212.000		3121.69
211.000		2758.84
210.000		2544.18
209.000		2896.59
208.000		2845.18
207.000		2560.04
206.000		3030.32
205.000		3092.57
204.000		2907.83
203.000		2789.96
202.000		2844.18
201.000		2752.81
200.000		2793.98
199.000		2500.60
198.000		2702.61
197.000		3082.93
196.000		2676.31
195.000		2618.27
194.000		3037.75
193.000		2757.23
192.000		3072.89
191.000		3128.31
190.000		2921.08
189.000		3037.35
188.000		2724.70
187.000		2625.50
186.000		2557.23
185.000		3222.89
184.000		3138.76
183.000		3041.77
182.000		3159.64
181.000		3099.60
180.000		3128.71
179.000		2853.82
178.000		3185.14
177.000		3289.76
176.000		2645.38
175.000		2928.71
174.000		2979.92
173.000		3025.50
172.000		3186.95
171.000		2914.66
170.000		2726.10
169.000		3163.65
168.000		3187.75
167.000		3086.14
166.000		3243.37
165.000		3123.29
164.000		3184.14
163.000		3214.06
162.000		3012.25
161.000		2887.75
160.000		3169.68
159.000		2990.36
158.000		2773.69
157.000		2874.70
156.000		3252.61
155.000		3230.72
154.000		3529.52
153.000		3653.61
152.000		3217.27
151.000		3432.93
150.000		3223.69
149.000		3087.55
148.000		3066.06
147.000		3083.53
146.000		3158.43
145.000		3011.45
144.000		3049.00
143.000		3504.42
142.000		3580.92
141.000		2737.35
140.000		2785.14
139.000		2805.02
138.000		2906.02
137.000		2876.51
136.000		3123.49
135.000		3122.49
134.000		3200.20
133.000		3019.08
132.000		3220.08
131.000		3313.65
130.000		3224.70
129.000		3141.97
128.000		3024.10
127.000		2668.47
126.000		2849.00
125.000		3218.47
124.000		2869.88
123.000		2968.47
122.000		3461.24
121.000		2968.67
120.000		3062.85
119.000		3251.81
118.000		3344.38
117.000		3039.96
116.000		3033.33
115.000		3138.96
114.000		2983.13
113.000		3119.68
112.000		3240.56
111.000		3205.82
110.000		3289.76
109.000		3280.72
108.000		3494.38
107.000		3139.76
106.000		3419.68
105.000		3454.42
104.000		3692.17
103.000		4006.43
102.000		3750.80
101.000		3394.18
100.000		3244.58
99.0000		3336.55
98.0000		3753.01
97.0000		3251.00
96.0000		3004.02
95.0000		3226.31
94.0000		3287.75
93.0000		2927.71
92.0000		3219.08
91.0000		3365.86
90.0000		3422.69
89.0000		3590.16
88.0000		3769.48
87.0000		3570.28
86.0000		3577.51
85.0000		3330.72
84.0000		3519.48
83.0000		3286.55
82.0000		3287.35
81.0000		3461.65
80.0000		3041.97
79.0000		3409.44
78.0000		3464.06
77.0000		3854.02
76.0000		3319.88
75.0000		3470.28
74.0000		3225.10
73.0000		3163.25
72.0000		3307.43
71.0000		3128.31
70.0000		3364.06
69.0000		3304.82
68.0000		3253.01
67.0000		3200.60
66.0000		3388.55
65.0000		3372.29
64.0000		3608.43
63.0000		3577.91
62.0000		3105.42
61.0000		2897.59
60.0000		3350.80
59.0000		4007.23
58.0000		3461.45
57.0000		3524.90
56.0000		3744.58
55.0000		3834.94
54.0000		3718.88
53.0000		3364.46
52.0000		3892.37
51.0000		3859.04
50.0000		3439.76
49.0000		3468.47
48.0000		3498.39
47.0000		3729.72
46.0000		3239.16
45.0000		3166.67
44.0000		3178.11
43.0000		3071.08
42.0000		3144.98
41.0000		3021.29
40.0000		2979.92
39.0000		3037.75
38.0000		3218.67
37.0000		3220.08
36.0000		3291.16
35.0000		2974.30
34.0000		3086.35
33.0000		2816.47
32.0000		3993.57
31.0000		4337.35
30.0000		4585.74
29.0000		5595.58
28.0000		5695.78
27.0000		5334.54
26.0000		5173.69
25.0000		4366.47
24.0000		4052.81
23.0000		3121.29
22.0000		3232.53
21.0000		3074.90
20.0000		3060.04
19.0000		3609.44
18.0000		3627.11
17.0000		3147.39
16.0000		2878.51
15.0000		3236.75
14.0000		3011.45
13.0000		2809.24
12.0000		3129.52
11.0000		2997.59
10.0000		2649.40
9.00000		2268.27
8.00000		1842.17
7.00000		1345.18
6.00000		1419.08
5.00000		1112.25
4.00000		825.904
3.00000		376.908
2.00000		139.357
1.00000		67.2691
0.000000		25.5020
-1.00000		17.4699
-2.00000		0.000000
-3.00000		0.000000
-4.00000		0.000000
-5.00000		0.000000
-6.00000		0.000000
-7.00000		0.000000
-8.00000		0.000000
-9.00000		0.000000
-10.0000		0.000000